STUDYID,DOMAIN,USUBJID,SUBJID,RFSTDTC,DTHDTC,DTHFL,SITEID,INVID,INVNAM,BRTHDTC,AGE,AGETXT,AGEU,SEX,RACE,ETHNIC,ARMCD,ARM,COUNTRY,DMDTC,DMDY
RPTESTB,DM,RPTESTB_001,001,2023/01,2023/08,Y,OXFORD,,,,67,,YEARS,F,White,British,PBO,PLACEBO,UK,2023/01,1
RPTESTB,DM,RPTESTB_002,002,2023/01,,,OXFORD,,,,18,,YEARS,F,White,Irish,TRT,TREATMENT,UK,2023/01,1
RPTESTB,DM,RPTESTB_003,003,2023/02,,,OXFORD,,,,48,,MONTHS,M,White,British,TRT,TREATMENT,UK,2023/02,1
