STUDYID,DOMAIN,USUBJID,DSSEQ,DSTERM,DSMODIFY,DSDECOD,VISITNUM,VISIT,VISITDY,EPOCH,DSDTC,DSSTDTC,DSDY,DSSTDY,DSCDSTDY
RPTESTB,DS,RPTESTB_001,1,died,,DEATH,7,Month 7 ,210,FOLLOW UP,2023/08,,210,,
RPTESTB,DS,RPTESTB_002,1,completed,,COMPLETED,10,Month 12,360,FOLLOW UP,2023/12,,362,,
RPTESTB,DS,RPTESTB_003,1,LOST TO FOLLOW UP,,LOST TO FOLLOW UP,9,Month 9,270,FOLLOW UP,2023/11,,270,,
