STUDYID,DOMAIN,USUBJID,HOSEQ,HOTERM,HODECOD,HOPRESP,HOOCCUR,HOSTAT,HOREASND,HODTC,HOSTDTC,HOENDTC,HODY,HOSTDY,HOENDY,HODUR,?HOSTRF,?HOEVINTX,?HOCDSTDY,?HODISOUT,?SELFCARE,?HOINDC,HOPATT
RPTESTB,HO,RPTESTB_001,1,Hospitalisation,HOSPITAL,Y,Y,,,,2023/07,2023/07,,186,190,P4D,,,,,WORSE THAN BEFORE ILLNESS,,1
RPTESTB,HO,RPTESTB_001,2,ICU,?INTENSIVE CARE UNIT,,,,,,2023/07,2023/08,,190,210,P20D,,,,EXPIRED IN A MEDICAL FACILITY,?NOT APPLICABLE,,2
RPTESTB,HO,RPTESTB_002,1,Visited a healthcare center,HEALTHCARE PROFESSIONAL VISIT,Y,Y,,,2023/06,,,144,,,,,,,,?NOT APPLICABLE,Routine Check Up,1
