STUDYID,DOMAIN,RPSEQ,USUBJID,RPTESTCD,RPTEST,RPORRES,RPORRESU,RPMODIFY,RPSTRESC,RPSTRESN,RPSTRESU,VISITNUM,VISIT,VISITDY,EPOCH,RPDTC,RPDY
RPTESTB,RP,1,RPTESTB_002,PREGIND,Pregnant Indicator ​ ,NEGATIVE,,,NEGATIVE,,,1,Day 0,1,BASELINE,2023/01,1
