STUDYID,DOMAIN,USUBJID,RSSEQ,RSTESTCD,RSTEST,RSCAT,RSORRES,RSORRESU,RSSTRESC,RSSTRESN,RSSTRESU,RSSTAT,RSREASND,VISITNUM,VISIT,VISITDY,EPOCH,RSDTC,RSDY,RSTPT,RSTPTNUM,RSTPTREF,RSSTRF,RSEVINTX,RSSTRTPT,RSSTTPT,RSCDSTDY
RPTESTB,RS,RPTESTB_002,1,WHOMAL01,WHOMAL01 WHO Treatment Response Malaria,WHO CLASSIFICATION OF RESPONSE TO TREATMENT FOR MALARIA,?ACPR,,ACPR,,,,,10,Month 12,360,FOLLOW UP,2023/12,362,,,,,,,,
RPTESTB,RS,RPTESTB_001,1,MBLTY01 ,???MBLTY01-Best Physical Mobility ? ? ? ,??ICU MOBILITY SCALE? ? ,0,,0,0,,,,,,,,2023/08,205,,,,,5 DAYS BEFORE DEATH,,,
